{
  "resourceType" : "CarePlan",
  "id" : "5341",
  "meta" : {
    "profile" : ["https://fhir.ehealth-systems.at/artifacts/StructureDefinition/kiola-care-plan"],
    "tag" : [{
      "system" : "https://fhir.ehealth-systems.at/kiola/careplan/transient-tag",
      "code" : "SENSOR_CONFIGURATION:{identifier=21778}"
    },
    {
      "system" : "https://fhir.ehealth-systems.at/kiola/careplan/transient-tag",
      "code" : "SENSOR_CONFIGURATION:{identifier=21779}"
    }]
  },
  "text" : {
    "status" : "generated",
    "div" : "<div xmlns=\"http://www.w3.org/1999/xhtml\"><p><b>Generated Narrative: CarePlan</b><a name=\"5341\"> </a><a name=\"hc5341\"> </a></p><div style=\"display: inline-block; background-color: #d9e0e7; padding: 6px; margin: 4px; border: 1px solid #8da1b4; border-radius: 5px; line-height: 60%\"><p style=\"margin-bottom: 0px\">Resource CarePlan &quot;5341&quot; </p><p style=\"margin-bottom: 0px\">Profile: <a href=\"StructureDefinition-kiola-care-plan.html\">KIOLA Care Plan</a></p><p style=\"margin-bottom: 0px\">Tags: <span title=\"{https://fhir.ehealth-systems.at/kiola/careplan/transient-tag https://fhir.ehealth-systems.at/kiola/careplan/transient-tag}\">https://fhir.ehealth-systems.at/kiola/careplan/transient-tag</span>, <span title=\"{https://fhir.ehealth-systems.at/kiola/careplan/transient-tag https://fhir.ehealth-systems.at/kiola/careplan/transient-tag}\">https://fhir.ehealth-systems.at/kiola/careplan/transient-tag</span></p></div><p><b>instantiatesCanonical</b>: <a href=\"https://fhir.ehealth-systems.at/artifacts/PlanDefinition/Test\">https://fhir.ehealth-systems.at/artifacts/PlanDefinition/Test</a></p><p><b>status</b>: active</p><p><b>intent</b>: order</p><p><b>category</b>: KIOLA Care Plan <span style=\"background: LightGoldenRodYellow; margin: 4px; border: 1px solid khaki\"> (<a href=\"CodeSystem-kiola-care-plan-category-cs.html\">KIOLA Care Plan Category Code System</a>#kiola-care-plan)</span></p><p><b>subject</b>: <span><code>https://fhir.ehealth-systems.at/kiola/identifier/subject</code>/hCZQJm6BrSimF232A39oL2</span></p><blockquote><p><b>activity</b></p><p><b>reference</b>: <a name=\"hcrequestgroup-test\"> </a></p><blockquote><p/><p><a name=\"requestgroup-test\"> </a></p><p><a name=\"hcrequestgroup-test\"> </a></p><p><b>instantiatesCanonical</b>: <a href=\"https://fhir.ehealth-systems.at/artifacts/PlanDefinition/Test\">https://fhir.ehealth-systems.at/artifacts/PlanDefinition/Test</a></p><p><b>status</b>: active</p><p><b>intent</b>: order</p><blockquote><p><b>action</b></p><p><b>title</b>: Blood pressure measurement</p><p><b>resource</b>: #servicerequest-mdc-dev-spec-profile-bp</p></blockquote><blockquote><p><b>action</b></p><p><b>title</b>: Body weight measurement</p><p><b>resource</b>: #servicerequest-mdc-dev-spec-profile-scale</p></blockquote><blockquote><p><b>action</b></p><p><b>title</b>: Wellbeing measurement</p><p><b>resource</b>: #servicerequest-mdc-dev-spec-profile-vnd-ait-wellbe</p></blockquote><blockquote><p><b>action</b></p><p><b>title</b>: Messung Kommentar</p><p><b>resource</b>: #servicerequest-mdc-dev-spec-profile-vnd-ait-commen</p></blockquote></blockquote></blockquote><blockquote><p><b>activity</b></p><p><b>reference</b>: <a name=\"hcservicerequestmdc-dev-spec-profile-glucose\"> </a></p><blockquote><p/><p><a name=\"servicerequestmdc-dev-spec-profile-glucose\"> </a></p><p><a name=\"hcservicerequestmdc-dev-spec-profile-glucose\"> </a></p><p><b>instantiatesCanonical</b>: <a href=\"ActivityDefinition-mdc-dev-spec-profile-glucose.html\">Glucose measurement</a></p><p><b>status</b>: active</p><p><b>intent</b>: order</p><p><b>code</b>: Glucose measurement <span style=\"background: LightGoldenRodYellow; margin: 4px; border: 1px solid khaki\"> (<a href=\"CodeSystem-kiola-measurement-cs.html\">KIOLA Measurement Codes</a>#MDC_DEV_SPEC_PROFILE_GLUCOSE)</span></p><p><b>subject</b>: <span><code>https://fhir.ehealth-systems.at/kiola/identifier/subject</code>/hCZQJm6BrSimF232A39oL2</span></p><p><b>performer</b>: #device-sdc-5</p></blockquote></blockquote><hr/><blockquote><p><b>Generated Narrative: Device #device-sdc</b><a name=\"device-sdc\"> </a><a name=\"hcdevice-sdc\"> </a></p><p><b>type</b>: Structured Data Capture <span style=\"background: LightGoldenRodYellow; margin: 4px; border: 1px solid khaki\"> (<a href=\"CodeSystem-kiola-device-cs.html\">KIOLA Device Codes</a>#SDC)</span></p></blockquote><hr/><blockquote><p><b>Generated Narrative: Device #device-mdc-dev-spec-profile-bp</b><a name=\"device-mdc-dev-spec-profile-bp\"> </a><a name=\"hcdevice-mdc-dev-spec-profile-bp\"> </a></p><p><b>type</b>: Blood pressure device <span style=\"background: LightGoldenRodYellow; margin: 4px; border: 1px solid khaki\"> (<a href=\"CodeSystem-kiola-mdc-cs.html\">KIOLA Device Codes AIT 11073</a>#MDC_DEV_SPEC_PROFILE_BP)</span></p><blockquote><p><b>property</b></p><p><b>type</b>: MDC_PRESS_BLD_NONINV_MEAN <span style=\"background: LightGoldenRodYellow; margin: 4px; border: 1px solid khaki\"> (<a href=\"CodeSystem-kiola-mdc-cs.html\">KIOLA Device Codes AIT 11073</a>#MDC_PRESS_BLD_NONINV_MEAN)</span></p><p><b>valueCode</b>: mmhg <span style=\"background: LightGoldenRodYellow; margin: 4px; border: 1px solid khaki\"> (<a href=\"CodeSystem-kiola-mdc-dim-cs.html\">KIOLA Dimension Codes AIT 11073</a>#MDC_DIM_MMHG:{min=1.000,max=1.000})</span></p></blockquote><blockquote><p><b>property</b></p><p><b>type</b>: MDC_PRESS_BLD_NONINV_SYS <span style=\"background: LightGoldenRodYellow; margin: 4px; border: 1px solid khaki\"> (<a href=\"CodeSystem-kiola-mdc-cs.html\">KIOLA Device Codes AIT 11073</a>#MDC_PRESS_BLD_NONINV_SYS)</span></p><p><b>valueCode</b>: mmhg <span style=\"background: LightGoldenRodYellow; margin: 4px; border: 1px solid khaki\"> (<a href=\"CodeSystem-kiola-mdc-dim-cs.html\">KIOLA Dimension Codes AIT 11073</a>#MDC_DIM_MMHG:{min=60.000,max=279.000})</span></p></blockquote><blockquote><p><b>property</b></p><p><b>type</b>: MDC_PRESS_BLD_NONINV_DIA <span style=\"background: LightGoldenRodYellow; margin: 4px; border: 1px solid khaki\"> (<a href=\"CodeSystem-kiola-mdc-cs.html\">KIOLA Device Codes AIT 11073</a>#MDC_PRESS_BLD_NONINV_DIA)</span></p><p><b>valueCode</b>: mmhg <span style=\"background: LightGoldenRodYellow; margin: 4px; border: 1px solid khaki\"> (<a href=\"CodeSystem-kiola-mdc-dim-cs.html\">KIOLA Dimension Codes AIT 11073</a>#MDC_DIM_MMHG:{min=40.000,max=200.000})</span></p></blockquote><blockquote><p><b>property</b></p><p><b>type</b>: MDC_PULS_RATE_NON_INV <span style=\"background: LightGoldenRodYellow; margin: 4px; border: 1px solid khaki\"> (<a href=\"CodeSystem-kiola-mdc-cs.html\">KIOLA Device Codes AIT 11073</a>#MDC_PULS_RATE_NON_INV)</span></p><p><b>valueCode</b>: bpm <span style=\"background: LightGoldenRodYellow; margin: 4px; border: 1px solid khaki\"> (<a href=\"CodeSystem-kiola-mdc-dim-cs.html\">KIOLA Dimension Codes AIT 11073</a>#MDC_DIM_BEAT_PER_MIN:{min=40.000,max=180.000})</span></p></blockquote></blockquote><hr/><blockquote><p><b>Generated Narrative: ServiceRequest #servicerequest-mdc-dev-spec-profile-bp</b><a name=\"servicerequest-mdc-dev-spec-profile-bp\"> </a><a name=\"hcservicerequest-mdc-dev-spec-profile-bp\"> </a></p><p><b>instantiatesCanonical</b>: <a href=\"ActivityDefinition-mdc-dev-spec-profile-bp.html\">Blood pressure measurement</a></p><p><b>status</b>: active</p><p><b>intent</b>: option</p><p><b>code</b>: Blood pressure measurement <span style=\"background: LightGoldenRodYellow; margin: 4px; border: 1px solid khaki\"> (<a href=\"CodeSystem-kiola-measurement-cs.html\">KIOLA Measurement Codes</a>#MDC_DEV_SPEC_PROFILE_BP)</span></p><p><b>subject</b>: <span><code>https://fhir.ehealth-systems.at/kiola/identifier/subject</code>/hCZQJm6BrSimF232A39oL2</span></p><p><b>occurrence</b>: Once per 3 days</p><p><b>performer</b>: </p><ul><li>#device-sdc</li><li>#device-mdc-dev-spec-profile-bp</li></ul></blockquote><hr/><blockquote><p><b>Generated Narrative: Device #device-sdc-2</b><a name=\"device-sdc-2\"> </a><a name=\"hcdevice-sdc-2\"> </a></p><p><b>type</b>: Structured Data Capture <span style=\"background: LightGoldenRodYellow; margin: 4px; border: 1px solid khaki\"> (<a href=\"CodeSystem-kiola-device-cs.html\">KIOLA Device Codes</a>#SDC)</span></p></blockquote><hr/><blockquote><p><b>Generated Narrative: Device #device-mdc-dev-spec-profile-scale</b><a name=\"device-mdc-dev-spec-profile-scale\"> </a><a name=\"hcdevice-mdc-dev-spec-profile-scale\"> </a></p><p><b>type</b>: Body weight scale <span style=\"background: LightGoldenRodYellow; margin: 4px; border: 1px solid khaki\"> (<a href=\"CodeSystem-kiola-mdc-cs.html\">KIOLA Device Codes AIT 11073</a>#MDC_DEV_SPEC_PROFILE_SCALE)</span></p><blockquote><p><b>property</b></p><p><b>type</b>: KMC Blocked Device <span style=\"background: LightGoldenRodYellow; margin: 4px; border: 1px solid khaki\"> (<a href=\"CodeSystem-kiola-device-kmc-cs.html\">KMC Device Codes</a>#blocked_device_type)</span></p><p><b>valueCode</b>: Example body weight scale <span style=\"background: LightGoldenRodYellow; margin: 4px; border: 1px solid khaki\"> (<a href=\"CodeSystem-kiola-device-cs.html\">KIOLA Device Codes</a>#ExampleScale)</span></p></blockquote><blockquote><p><b>property</b></p><p><b>type</b>: MDC_VND_AIT_ABDOMINAL_GIRTH <span style=\"background: LightGoldenRodYellow; margin: 4px; border: 1px solid khaki\"> (<a href=\"CodeSystem-kiola-mdc-cs.html\">KIOLA Device Codes AIT 11073</a>#MDC_VND_AIT_ABDOMINAL_GIRTH)</span></p><p><b>valueCode</b>: cm <span style=\"background: LightGoldenRodYellow; margin: 4px; border: 1px solid khaki\"> (<a href=\"CodeSystem-kiola-mdc-dim-cs.html\">KIOLA Dimension Codes AIT 11073</a>#MDC_DIM_CENTI_M:{min=0.000,max=300.000})</span></p></blockquote><blockquote><p><b>property</b></p><p><b>type</b>: MDC_MASS_BODY_ACTUAL <span style=\"background: LightGoldenRodYellow; margin: 4px; border: 1px solid khaki\"> (<a href=\"CodeSystem-kiola-mdc-cs.html\">KIOLA Device Codes AIT 11073</a>#MDC_MASS_BODY_ACTUAL)</span></p><p><b>valueCode</b>: kg <span style=\"background: LightGoldenRodYellow; margin: 4px; border: 1px solid khaki\"> (<a href=\"CodeSystem-kiola-mdc-dim-cs.html\">KIOLA Dimension Codes AIT 11073</a>#MDC_DIM_KILO_G:{min=30.000,max=300.000})</span></p></blockquote></blockquote><hr/><blockquote><p><b>Generated Narrative: ServiceRequest #servicerequest-mdc-dev-spec-profile-scale</b><a name=\"servicerequest-mdc-dev-spec-profile-scale\"> </a><a name=\"hcservicerequest-mdc-dev-spec-profile-scale\"> </a></p><p><b>instantiatesCanonical</b>: <a href=\"ActivityDefinition-mdc-dev-spec-profile-scale.html\">Body weight measurement</a></p><p><b>status</b>: active</p><p><b>intent</b>: option</p><p><b>code</b>: Body weight measurement <span style=\"background: LightGoldenRodYellow; margin: 4px; border: 1px solid khaki\"> (<a href=\"CodeSystem-kiola-measurement-cs.html\">KIOLA Measurement Codes</a>#MDC_DEV_SPEC_PROFILE_SCALE)</span></p><p><b>subject</b>: <span><code>https://fhir.ehealth-systems.at/kiola/identifier/subject</code>/hCZQJm6BrSimF232A39oL2</span></p><p><b>occurrence</b>: Once per 1 days</p><p><b>performer</b>: </p><ul><li>#device-sdc-2</li><li>#device-mdc-dev-spec-profile-scale</li></ul></blockquote><hr/><blockquote><p><b>Generated Narrative: Device #device-sdc-3</b><a name=\"device-sdc-3\"> </a><a name=\"hcdevice-sdc-3\"> </a></p><p><b>type</b>: Structured Data Capture <span style=\"background: LightGoldenRodYellow; margin: 4px; border: 1px solid khaki\"> (<a href=\"CodeSystem-kiola-device-cs.html\">KIOLA Device Codes</a>#SDC)</span></p></blockquote><hr/><blockquote><p><b>Generated Narrative: ServiceRequest #servicerequest-mdc-dev-spec-profile-vnd-ait-wellbe</b><a name=\"servicerequest-mdc-dev-spec-profile-vnd-ait-wellbe\"> </a><a name=\"hcservicerequest-mdc-dev-spec-profile-vnd-ait-wellbe\"> </a></p><p><b>instantiatesCanonical</b>: <a href=\"ActivityDefinition-mdc-dev-spec-profile-vnd-ait-wellbeing.html\">Subjective wellbeing measurement</a></p><p><b>status</b>: active</p><p><b>intent</b>: option</p><p><b>code</b>: Subjective wellbeing measurement <span style=\"background: LightGoldenRodYellow; margin: 4px; border: 1px solid khaki\"> (<a href=\"CodeSystem-kiola-measurement-cs.html\">KIOLA Measurement Codes</a>#MDC_DEV_SPEC_PROFILE_VND_AIT_WELLBEING)</span></p><p><b>subject</b>: <span><code>https://fhir.ehealth-systems.at/kiola/identifier/subject</code>/hCZQJm6BrSimF232A39oL2</span></p><p><b>occurrence</b>: Once per 3 days</p><p><b>performer</b>: #device-sdc-3</p></blockquote><hr/><blockquote><p><b>Generated Narrative: Device #device-sdc-4</b><a name=\"device-sdc-4\"> </a><a name=\"hcdevice-sdc-4\"> </a></p><p><b>type</b>: Structured Data Capture <span style=\"background: LightGoldenRodYellow; margin: 4px; border: 1px solid khaki\"> (<a href=\"CodeSystem-kiola-device-cs.html\">KIOLA Device Codes</a>#SDC)</span></p></blockquote><hr/><blockquote><p><b>Generated Narrative: ServiceRequest #servicerequest-mdc-dev-spec-profile-vnd-ait-commen</b><a name=\"servicerequest-mdc-dev-spec-profile-vnd-ait-commen\"> </a><a name=\"hcservicerequest-mdc-dev-spec-profile-vnd-ait-commen\"> </a></p><p><b>instantiatesCanonical</b>: <a href=\"ActivityDefinition-mdc-dev-spec-profile-vnd-ait-comment.html\">Comment entry</a></p><p><b>status</b>: active</p><p><b>intent</b>: option</p><p><b>code</b>: Comment entry <span style=\"background: LightGoldenRodYellow; margin: 4px; border: 1px solid khaki\"> (<a href=\"CodeSystem-kiola-measurement-cs.html\">KIOLA Measurement Codes</a>#MDC_DEV_SPEC_PROFILE_VND_AIT_COMMENT)</span></p><p><b>subject</b>: <span><code>https://fhir.ehealth-systems.at/kiola/identifier/subject</code>/hCZQJm6BrSimF232A39oL2</span></p><p><b>performer</b>: #device-sdc-4</p></blockquote><hr/><blockquote><p><b>Generated Narrative: RequestGroup #requestgroup-test</b><a name=\"requestgroup-test\"> </a><a name=\"hcrequestgroup-test\"> </a></p><p><b>instantiatesCanonical</b>: <a href=\"https://fhir.ehealth-systems.at/artifacts/PlanDefinition/Test\">https://fhir.ehealth-systems.at/artifacts/PlanDefinition/Test</a></p><p><b>status</b>: active</p><p><b>intent</b>: order</p><blockquote><p><b>action</b></p><p><b>title</b>: Blood pressure measurement</p><p><b>resource</b>: #servicerequest-mdc-dev-spec-profile-bp</p></blockquote><blockquote><p><b>action</b></p><p><b>title</b>: Body weight measurement</p><p><b>resource</b>: #servicerequest-mdc-dev-spec-profile-scale</p></blockquote><blockquote><p><b>action</b></p><p><b>title</b>: Wellbeing measurement</p><p><b>resource</b>: #servicerequest-mdc-dev-spec-profile-vnd-ait-wellbe</p></blockquote><blockquote><p><b>action</b></p><p><b>title</b>: Messung Kommentar</p><p><b>resource</b>: #servicerequest-mdc-dev-spec-profile-vnd-ait-commen</p></blockquote></blockquote><hr/><blockquote><p><b>Generated Narrative: Device #device-sdc-5</b><a name=\"device-sdc-5\"> </a><a name=\"hcdevice-sdc-5\"> </a></p><p><b>type</b>: Structured Data Capture <span style=\"background: LightGoldenRodYellow; margin: 4px; border: 1px solid khaki\"> (<a href=\"CodeSystem-kiola-device-cs.html\">KIOLA Device Codes</a>#SDC)</span></p></blockquote><hr/><blockquote><p><b>Generated Narrative: ServiceRequest #servicerequestmdc-dev-spec-profile-glucose</b><a name=\"servicerequestmdc-dev-spec-profile-glucose\"> </a><a name=\"hcservicerequestmdc-dev-spec-profile-glucose\"> </a></p><p><b>instantiatesCanonical</b>: <a href=\"ActivityDefinition-mdc-dev-spec-profile-glucose.html\">Glucose measurement</a></p><p><b>status</b>: active</p><p><b>intent</b>: order</p><p><b>code</b>: Glucose measurement <span style=\"background: LightGoldenRodYellow; margin: 4px; border: 1px solid khaki\"> (<a href=\"CodeSystem-kiola-measurement-cs.html\">KIOLA Measurement Codes</a>#MDC_DEV_SPEC_PROFILE_GLUCOSE)</span></p><p><b>subject</b>: <span><code>https://fhir.ehealth-systems.at/kiola/identifier/subject</code>/hCZQJm6BrSimF232A39oL2</span></p><p><b>performer</b>: #device-sdc-5</p></blockquote></div>"
  },
  "contained" : [{
    "resourceType" : "Device",
    "id" : "device-sdc",
    "type" : {
      "coding" : [{
        "system" : "https://fhir.ehealth-systems.at/kiola/device",
        "code" : "SDC"
      }]
    }
  },
  {
    "resourceType" : "Device",
    "id" : "device-mdc-dev-spec-profile-bp",
    "type" : {
      "coding" : [{
        "system" : "https://fhir.ehealth-systems.at/kiola/device/AIT-11073",
        "code" : "MDC_DEV_SPEC_PROFILE_BP",
        "display" : "Blood pressure device"
      }]
    },
    "property" : [{
      "type" : {
        "coding" : [{
          "system" : "https://fhir.ehealth-systems.at/kiola/device/AIT-11073",
          "code" : "MDC_PRESS_BLD_NONINV_MEAN"
        }]
      },
      "valueCode" : [{
        "coding" : [{
          "system" : "https://fhir.ehealth-systems.at/kiola/dimension/AIT-11073",
          "code" : "MDC_DIM_MMHG:{min=1.000,max=1.000}",
          "display" : "mmhg"
        }]
      }]
    },
    {
      "type" : {
        "coding" : [{
          "system" : "https://fhir.ehealth-systems.at/kiola/device/AIT-11073",
          "code" : "MDC_PRESS_BLD_NONINV_SYS"
        }]
      },
      "valueCode" : [{
        "coding" : [{
          "system" : "https://fhir.ehealth-systems.at/kiola/dimension/AIT-11073",
          "code" : "MDC_DIM_MMHG:{min=60.000,max=279.000}",
          "display" : "mmhg"
        }]
      }]
    },
    {
      "type" : {
        "coding" : [{
          "system" : "https://fhir.ehealth-systems.at/kiola/device/AIT-11073",
          "code" : "MDC_PRESS_BLD_NONINV_DIA"
        }]
      },
      "valueCode" : [{
        "coding" : [{
          "system" : "https://fhir.ehealth-systems.at/kiola/dimension/AIT-11073",
          "code" : "MDC_DIM_MMHG:{min=40.000,max=200.000}",
          "display" : "mmhg"
        }]
      }]
    },
    {
      "type" : {
        "coding" : [{
          "system" : "https://fhir.ehealth-systems.at/kiola/device/AIT-11073",
          "code" : "MDC_PULS_RATE_NON_INV"
        }]
      },
      "valueCode" : [{
        "coding" : [{
          "system" : "https://fhir.ehealth-systems.at/kiola/dimension/AIT-11073",
          "code" : "MDC_DIM_BEAT_PER_MIN:{min=40.000,max=180.000}",
          "display" : "bpm"
        }]
      }]
    }]
  },
  {
    "resourceType" : "ServiceRequest",
    "id" : "servicerequest-mdc-dev-spec-profile-bp",
    "instantiatesCanonical" : ["https://fhir.ehealth-systems.at/artifacts/ActivityDefinition/mdc-dev-spec-profile-bp"],
    "status" : "active",
    "intent" : "option",
    "code" : {
      "coding" : [{
        "system" : "https://fhir.ehealth-systems.at/kiola/measurement",
        "code" : "MDC_DEV_SPEC_PROFILE_BP"
      }],
      "text" : "Blood pressure measurement"
    },
    "subject" : {
      "identifier" : {
        "system" : "https://fhir.ehealth-systems.at/kiola/identifier/subject",
        "value" : "hCZQJm6BrSimF232A39oL2"
      }
    },
    "occurrenceTiming" : {
      "repeat" : {
        "frequency" : 1,
        "period" : 3,
        "periodUnit" : "d"
      }
    },
    "performer" : [{
      "reference" : "#device-sdc"
    },
    {
      "reference" : "#device-mdc-dev-spec-profile-bp"
    }]
  },
  {
    "resourceType" : "Device",
    "id" : "device-sdc-2",
    "type" : {
      "coding" : [{
        "system" : "https://fhir.ehealth-systems.at/kiola/device",
        "code" : "SDC"
      }]
    }
  },
  {
    "resourceType" : "Device",
    "id" : "device-mdc-dev-spec-profile-scale",
    "type" : {
      "coding" : [{
        "system" : "https://fhir.ehealth-systems.at/kiola/device/AIT-11073",
        "code" : "MDC_DEV_SPEC_PROFILE_SCALE",
        "display" : "Body weight scale"
      }]
    },
    "property" : [{
      "type" : {
        "coding" : [{
          "system" : "https://fhir.ehealth-systems.at/kiola/device/kmc",
          "code" : "blocked_device_type",
          "display" : "KMC Blocked Device"
        }]
      },
      "valueCode" : [{
        "coding" : [{
          "system" : "https://fhir.ehealth-systems.at/kiola/device",
          "code" : "ExampleScale",
          "display" : "Example body weight scale"
        }]
      }]
    },
    {
      "type" : {
        "coding" : [{
          "system" : "https://fhir.ehealth-systems.at/kiola/device/AIT-11073",
          "code" : "MDC_VND_AIT_ABDOMINAL_GIRTH"
        }]
      },
      "valueCode" : [{
        "coding" : [{
          "system" : "https://fhir.ehealth-systems.at/kiola/dimension/AIT-11073",
          "code" : "MDC_DIM_CENTI_M:{min=0.000,max=300.000}",
          "display" : "cm"
        }]
      }]
    },
    {
      "type" : {
        "coding" : [{
          "system" : "https://fhir.ehealth-systems.at/kiola/device/AIT-11073",
          "code" : "MDC_MASS_BODY_ACTUAL"
        }]
      },
      "valueCode" : [{
        "coding" : [{
          "system" : "https://fhir.ehealth-systems.at/kiola/dimension/AIT-11073",
          "code" : "MDC_DIM_KILO_G:{min=30.000,max=300.000}",
          "display" : "kg"
        }]
      }]
    }]
  },
  {
    "resourceType" : "ServiceRequest",
    "id" : "servicerequest-mdc-dev-spec-profile-scale",
    "instantiatesCanonical" : ["https://fhir.ehealth-systems.at/artifacts/ActivityDefinition/mdc-dev-spec-profile-scale"],
    "status" : "active",
    "intent" : "option",
    "code" : {
      "coding" : [{
        "system" : "https://fhir.ehealth-systems.at/kiola/measurement",
        "code" : "MDC_DEV_SPEC_PROFILE_SCALE"
      }],
      "text" : "Body weight measurement"
    },
    "subject" : {
      "identifier" : {
        "system" : "https://fhir.ehealth-systems.at/kiola/identifier/subject",
        "value" : "hCZQJm6BrSimF232A39oL2"
      }
    },
    "occurrenceTiming" : {
      "repeat" : {
        "frequency" : 1,
        "period" : 1,
        "periodUnit" : "d"
      }
    },
    "performer" : [{
      "reference" : "#device-sdc-2"
    },
    {
      "reference" : "#device-mdc-dev-spec-profile-scale"
    }]
  },
  {
    "resourceType" : "Device",
    "id" : "device-sdc-3",
    "type" : {
      "coding" : [{
        "system" : "https://fhir.ehealth-systems.at/kiola/device",
        "code" : "SDC"
      }]
    }
  },
  {
    "resourceType" : "ServiceRequest",
    "id" : "servicerequest-mdc-dev-spec-profile-vnd-ait-wellbe",
    "instantiatesCanonical" : ["https://fhir.ehealth-systems.at/artifacts/ActivityDefinition/mdc-dev-spec-profile-vnd-ait-wellbeing"],
    "status" : "active",
    "intent" : "option",
    "code" : {
      "coding" : [{
        "system" : "https://fhir.ehealth-systems.at/kiola/measurement",
        "code" : "MDC_DEV_SPEC_PROFILE_VND_AIT_WELLBEING"
      }],
      "text" : "Subjective wellbeing measurement"
    },
    "subject" : {
      "identifier" : {
        "system" : "https://fhir.ehealth-systems.at/kiola/identifier/subject",
        "value" : "hCZQJm6BrSimF232A39oL2"
      }
    },
    "occurrenceTiming" : {
      "repeat" : {
        "frequency" : 1,
        "period" : 3,
        "periodUnit" : "d"
      }
    },
    "performer" : [{
      "reference" : "#device-sdc-3"
    }]
  },
  {
    "resourceType" : "Device",
    "id" : "device-sdc-4",
    "type" : {
      "coding" : [{
        "system" : "https://fhir.ehealth-systems.at/kiola/device",
        "code" : "SDC"
      }]
    }
  },
  {
    "resourceType" : "ServiceRequest",
    "id" : "servicerequest-mdc-dev-spec-profile-vnd-ait-commen",
    "instantiatesCanonical" : ["https://fhir.ehealth-systems.at/artifacts/ActivityDefinition/mdc-dev-spec-profile-vnd-ait-comment"],
    "status" : "active",
    "intent" : "option",
    "code" : {
      "coding" : [{
        "system" : "https://fhir.ehealth-systems.at/kiola/measurement",
        "code" : "MDC_DEV_SPEC_PROFILE_VND_AIT_COMMENT"
      }],
      "text" : "Comment entry"
    },
    "subject" : {
      "identifier" : {
        "system" : "https://fhir.ehealth-systems.at/kiola/identifier/subject",
        "value" : "hCZQJm6BrSimF232A39oL2"
      }
    },
    "performer" : [{
      "reference" : "#device-sdc-4"
    }]
  },
  {
    "resourceType" : "RequestGroup",
    "id" : "requestgroup-test",
    "instantiatesCanonical" : ["https://fhir.ehealth-systems.at/artifacts/PlanDefinition/Test"],
    "status" : "active",
    "intent" : "order",
    "action" : [{
      "title" : "Blood pressure measurement",
      "resource" : {
        "reference" : "#servicerequest-mdc-dev-spec-profile-bp"
      }
    },
    {
      "title" : "Body weight measurement",
      "resource" : {
        "reference" : "#servicerequest-mdc-dev-spec-profile-scale"
      }
    },
    {
      "title" : "Wellbeing measurement",
      "resource" : {
        "reference" : "#servicerequest-mdc-dev-spec-profile-vnd-ait-wellbe"
      }
    },
    {
      "title" : "Messung Kommentar",
      "resource" : {
        "reference" : "#servicerequest-mdc-dev-spec-profile-vnd-ait-commen"
      }
    }]
  },
  {
    "resourceType" : "Device",
    "id" : "device-sdc-5",
    "type" : {
      "coding" : [{
        "system" : "https://fhir.ehealth-systems.at/kiola/device",
        "code" : "SDC"
      }]
    }
  },
  {
    "resourceType" : "ServiceRequest",
    "id" : "servicerequestmdc-dev-spec-profile-glucose",
    "instantiatesCanonical" : ["https://fhir.ehealth-systems.at/artifacts/ActivityDefinition/mdc-dev-spec-profile-glucose"],
    "status" : "active",
    "intent" : "order",
    "code" : {
      "coding" : [{
        "system" : "https://fhir.ehealth-systems.at/kiola/measurement",
        "code" : "MDC_DEV_SPEC_PROFILE_GLUCOSE"
      }],
      "text" : "Glucose measurement"
    },
    "subject" : {
      "identifier" : {
        "system" : "https://fhir.ehealth-systems.at/kiola/identifier/subject",
        "value" : "hCZQJm6BrSimF232A39oL2"
      }
    },
    "performer" : [{
      "reference" : "#device-sdc-5"
    }]
  }],
  "instantiatesCanonical" : ["https://fhir.ehealth-systems.at/artifacts/PlanDefinition/Test"],
  "status" : "active",
  "intent" : "order",
  "category" : [{
    "coding" : [{
      "system" : "https://fhir.ehealth-systems.at/kiola/careplan/category",
      "code" : "kiola-care-plan"
    }],
    "text" : "KIOLA Care Plan"
  }],
  "subject" : {
    "identifier" : {
      "system" : "https://fhir.ehealth-systems.at/kiola/identifier/subject",
      "value" : "hCZQJm6BrSimF232A39oL2"
    }
  },
  "activity" : [{
    "reference" : {
      "reference" : "#requestgroup-test"
    }
  },
  {
    "reference" : {
      "reference" : "#servicerequestmdc-dev-spec-profile-glucose"
    }
  }]
}