{
  "resourceType" : "RequestOrchestration",
  "id" : "RequestOrchestration-Dosage-Example",
  "meta" : {
    "profile" : ["http://fhir.hl7.at/linkedcare/StructureDefinition/linca-full-proposal-list"]
  },
  "text" : {
    "status" : "generated",
    "div" : "<div xmlns=\"http://www.w3.org/1999/xhtml\"><p><b>Generated Narrative: RequestOrchestration</b><a name=\"RequestOrchestration-Dosage-Example\"> </a></p><div style=\"display: inline-block; background-color: #d9e0e7; padding: 6px; margin: 4px; border: 1px solid #8da1b4; border-radius: 5px; line-height: 60%\"><p style=\"margin-bottom: 0px\">Resource RequestOrchestration &quot;RequestOrchestration-Dosage-Example&quot; </p><p style=\"margin-bottom: 0px\">Profile: <a href=\"StructureDefinition-linca-full-proposal-list.html\">LINCA Proposal List (LINCARequestOrchestration)</a></p></div><p><b>status</b>: active</p><p><b>intent</b>: proposal</p><p><b>subject</b>: <span>: Pflegedienst Immerdar</span></p><blockquote><p><b>action</b></p><p><b>type</b>: create <span style=\"background: LightGoldenRodYellow; margin: 4px; border: 1px solid khaki\"> ([not stated]#create)</span></p><p><b>resource</b>: <a name=\"dd3dc150a0cf4edf8b8cd577191a1000\"> </a></p><blockquote><p/><p><a name=\"dd3dc150a0cf4edf8b8cd577191a1000\"> </a></p><p><b>status</b>: unknown</p><p><b>intent</b>: proposal</p><h3>Medications</h3><table class=\"grid\"><tr><td style=\"display: none\">-</td><td><b>Concept</b></td></tr><tr><td style=\"display: none\">*</td><td>981417 <span style=\"background: LightGoldenRodYellow; margin: 4px; border: 1px solid khaki\"> (CodeSystem-asp-liste#981417)</span></td></tr></table><p><b>subject</b>: <a href=\"Patient-6800bda462034a9a8123e3dc48c61d53.html\">Patient/6800bda462034a9a8123e3dc48c61d53</a> &quot; GÜRTELTHIER&quot;</p><p><b>informationSource</b>: <span>: Pflegedienst Immerdar</span></p><p><b>requester</b>: <span>: DGKP Walter Specht</span></p><p><b>performer</b>: <span>: Dr. Silvia Spitzmaus</span></p><p><b>note</b>: Pharmacy Logisitic Label</p><blockquote><p><b>dosageInstruction</b></p><p><b>sequence</b>: 1</p><p><b>text</b>: Every Thursday morning 2 pills</p><p><b>timing</b>: , ?ngen-6?</p><blockquote><p><b>doseAndRate</b></p></blockquote></blockquote><blockquote><p><b>dosageInstruction</b></p><p><b>sequence</b>: 2</p><p><b>text</b>: Every Thursday Evening 1 pill</p><p><b>timing</b>: , ?ngen-6?</p><blockquote><p><b>doseAndRate</b></p></blockquote></blockquote></blockquote></blockquote><blockquote><p><b>action</b></p><p><b>type</b>: create <span style=\"background: LightGoldenRodYellow; margin: 4px; border: 1px solid khaki\"> ([not stated]#create)</span></p><p><b>resource</b>: <a name=\"d2359858cb6640faa9d1f8a12345bada\"> </a></p><blockquote><p/><p><a name=\"d2359858cb6640faa9d1f8a12345bada\"> </a></p><p><b>status</b>: unknown</p><p><b>intent</b>: proposal</p><h3>Medications</h3><table class=\"grid\"><tr><td style=\"display: none\">-</td><td><b>Concept</b></td></tr><tr><td style=\"display: none\">*</td><td>981417 <span style=\"background: LightGoldenRodYellow; margin: 4px; border: 1px solid khaki\"> (CodeSystem-asp-liste#981417)</span></td></tr></table><p><b>subject</b>: <a href=\"Patient-6800bda462034a9a8123e3dc48c61d53.html\">Patient/6800bda462034a9a8123e3dc48c61d53</a> &quot; GÜRTELTHIER&quot;</p><p><b>informationSource</b>: <span>: Pflegedienst Immerdar</span></p><p><b>requester</b>: <span>: DGKP Walter Specht</span></p><p><b>performer</b>: <span>: Dr. Silvia Spitzmaus</span></p><p><b>note</b>: Pharmacy Logisitic Label</p><blockquote><p><b>dosageInstruction</b></p><p><b>sequence</b>: 1</p><p><b>text</b>: Take 2 pills daily</p><p><b>timing</b>: Once per 1 days</p><blockquote><p><b>doseAndRate</b></p></blockquote></blockquote></blockquote></blockquote><blockquote><p><b>action</b></p><p><b>type</b>: create <span style=\"background: LightGoldenRodYellow; margin: 4px; border: 1px solid khaki\"> ([not stated]#create)</span></p><p><b>resource</b>: <a name=\"c42a921b95004b87a7d19fa59cf64c99\"> </a></p><blockquote><p/><p><a name=\"c42a921b95004b87a7d19fa59cf64c99\"> </a></p><p><b>status</b>: unknown</p><p><b>intent</b>: proposal</p><h3>Medications</h3><table class=\"grid\"><tr><td style=\"display: none\">-</td><td><b>Concept</b></td></tr><tr><td style=\"display: none\">*</td><td>981417 <span style=\"background: LightGoldenRodYellow; margin: 4px; border: 1px solid khaki\"> (CodeSystem-asp-liste#981417)</span></td></tr></table><p><b>subject</b>: <a href=\"Patient-6800bda462034a9a8123e3dc48c61d53.html\">Patient/6800bda462034a9a8123e3dc48c61d53</a> &quot; GÜRTELTHIER&quot;</p><p><b>informationSource</b>: <span>: Pflegedienst Immerdar</span></p><p><b>requester</b>: <span>: DGKP Walter Specht</span></p><p><b>performer</b>: <span>: Dr. Silvia Spitzmaus</span></p><p><b>note</b>: Pharmacy Logisitic Label</p><blockquote><p><b>dosageInstruction</b></p><p><b>sequence</b>: 1</p><p><b>text</b>: Take 2 pills on monday</p><p><b>timing</b>: Once per 1 weeks</p><blockquote><p><b>doseAndRate</b></p></blockquote></blockquote></blockquote></blockquote><hr/><blockquote><p><b>Generated Narrative: MedicationRequest #dd3dc150a0cf4edf8b8cd577191a1000</b><a name=\"dd3dc150a0cf4edf8b8cd577191a1000\"> </a></p><p><b>status</b>: unknown</p><p><b>intent</b>: proposal</p><h3>Medications</h3><table class=\"grid\"><tr><td style=\"display: none\">-</td><td><b>Concept</b></td></tr><tr><td style=\"display: none\">*</td><td>981417 <span style=\"background: LightGoldenRodYellow; margin: 4px; border: 1px solid khaki\"> (CodeSystem-asp-liste#981417)</span></td></tr></table><p><b>subject</b>: <a href=\"Patient-6800bda462034a9a8123e3dc48c61d53.html\">Patient/6800bda462034a9a8123e3dc48c61d53</a> &quot; GÜRTELTHIER&quot;</p><p><b>informationSource</b>: <span>: Pflegedienst Immerdar</span></p><p><b>requester</b>: <span>: DGKP Walter Specht</span></p><p><b>performer</b>: <span>: Dr. Silvia Spitzmaus</span></p><p><b>note</b>: Pharmacy Logisitic Label</p><blockquote><p><b>dosageInstruction</b></p><p><b>sequence</b>: 1</p><p><b>text</b>: Every Thursday morning 2 pills</p><p><b>timing</b>: , ?ngen-6?</p><blockquote><p><b>doseAndRate</b></p></blockquote></blockquote><blockquote><p><b>dosageInstruction</b></p><p><b>sequence</b>: 2</p><p><b>text</b>: Every Thursday Evening 1 pill</p><p><b>timing</b>: , ?ngen-6?</p><blockquote><p><b>doseAndRate</b></p></blockquote></blockquote></blockquote><hr/><blockquote><p><b>Generated Narrative: MedicationRequest #d2359858cb6640faa9d1f8a12345bada</b><a name=\"d2359858cb6640faa9d1f8a12345bada\"> </a></p><p><b>status</b>: unknown</p><p><b>intent</b>: proposal</p><h3>Medications</h3><table class=\"grid\"><tr><td style=\"display: none\">-</td><td><b>Concept</b></td></tr><tr><td style=\"display: none\">*</td><td>981417 <span style=\"background: LightGoldenRodYellow; margin: 4px; border: 1px solid khaki\"> (CodeSystem-asp-liste#981417)</span></td></tr></table><p><b>subject</b>: <a href=\"Patient-6800bda462034a9a8123e3dc48c61d53.html\">Patient/6800bda462034a9a8123e3dc48c61d53</a> &quot; GÜRTELTHIER&quot;</p><p><b>informationSource</b>: <span>: Pflegedienst Immerdar</span></p><p><b>requester</b>: <span>: DGKP Walter Specht</span></p><p><b>performer</b>: <span>: Dr. Silvia Spitzmaus</span></p><p><b>note</b>: Pharmacy Logisitic Label</p><blockquote><p><b>dosageInstruction</b></p><p><b>sequence</b>: 1</p><p><b>text</b>: Take 2 pills daily</p><p><b>timing</b>: Once per 1 days</p><blockquote><p><b>doseAndRate</b></p></blockquote></blockquote></blockquote><hr/><blockquote><p><b>Generated Narrative: MedicationRequest #c42a921b95004b87a7d19fa59cf64c99</b><a name=\"c42a921b95004b87a7d19fa59cf64c99\"> </a></p><p><b>status</b>: unknown</p><p><b>intent</b>: proposal</p><h3>Medications</h3><table class=\"grid\"><tr><td style=\"display: none\">-</td><td><b>Concept</b></td></tr><tr><td style=\"display: none\">*</td><td>981417 <span style=\"background: LightGoldenRodYellow; margin: 4px; border: 1px solid khaki\"> (CodeSystem-asp-liste#981417)</span></td></tr></table><p><b>subject</b>: <a href=\"Patient-6800bda462034a9a8123e3dc48c61d53.html\">Patient/6800bda462034a9a8123e3dc48c61d53</a> &quot; GÜRTELTHIER&quot;</p><p><b>informationSource</b>: <span>: Pflegedienst Immerdar</span></p><p><b>requester</b>: <span>: DGKP Walter Specht</span></p><p><b>performer</b>: <span>: Dr. Silvia Spitzmaus</span></p><p><b>note</b>: Pharmacy Logisitic Label</p><blockquote><p><b>dosageInstruction</b></p><p><b>sequence</b>: 1</p><p><b>text</b>: Take 2 pills on monday</p><p><b>timing</b>: Once per 1 weeks</p><blockquote><p><b>doseAndRate</b></p></blockquote></blockquote></blockquote></div>"
  },
  "contained" : [{
    "resourceType" : "MedicationRequest",
    "id" : "dd3dc150a0cf4edf8b8cd577191a1000",
    "meta" : {
      "profile" : ["http://fhir.hl7.at/linkedcare/StructureDefinition/linca-proposal-medication-request"]
    },
    "status" : "unknown",
    "intent" : "proposal",
    "medication" : {
      "concept" : {
        "coding" : [{
          "system" : "https://termgit.elga.gv.at/CodeSystem-asp-liste",
          "code" : "981417"
        }]
      }
    },
    "subject" : {
      "reference" : "Patient/6800bda462034a9a8123e3dc48c61d53"
    },
    "informationSource" : [{
      "identifier" : {
        "system" : "urn:oid:1.2.40.0.34.5.2",
        "value" : "2.999.40.0.34.1.1.3"
      },
      "display" : "Pflegedienst Immerdar"
    }],
    "requester" : {
      "identifier" : {
        "system" : "urn:oid:2.999.40.0.34.1.1.1",
        "value" : "ECHT_SPECHT"
      },
      "display" : "DGKP Walter Specht"
    },
    "performer" : [{
      "identifier" : {
        "system" : "urn:oid:1.2.40.0.34.5.2",
        "value" : "2.999.40.0.34.3.1.3"
      },
      "display" : "Dr. Silvia Spitzmaus"
    }],
    "note" : [{
      "text" : "Pharmacy Logisitic Label"
    }],
    "dosageInstruction" : [{
      "sequence" : 1,
      "text" : "Every Thursday morning 2 pills",
      "timing" : {
        "repeat" : {
          "frequency" : 1,
          "period" : 1,
          "periodUnit" : "d",
          "dayOfWeek" : ["thu"],
          "when" : ["MORN"]
        }
      },
      "doseAndRate" : [{
        "type" : {
          "coding" : [{
            "system" : "http://terminology.hl7.org/CodeSystem/dose-rate-type",
            "code" : "ordered",
            "display" : "Ordered"
          }]
        },
        "doseQuantity" : {
          "value" : 2,
          "system" : "https://termgit.elga.gv.at/ValueSet/elga-medikationdarreichungsform",
          "code" : "100000073665"
        }
      }]
    },
    {
      "sequence" : 2,
      "text" : "Every Thursday Evening 1 pill",
      "timing" : {
        "repeat" : {
          "frequency" : 1,
          "period" : 1,
          "periodUnit" : "d",
          "dayOfWeek" : ["thu"],
          "when" : ["EVE"]
        }
      },
      "doseAndRate" : [{
        "type" : {
          "coding" : [{
            "system" : "http://terminology.hl7.org/CodeSystem/dose-rate-type",
            "code" : "ordered",
            "display" : "Ordered"
          }]
        },
        "doseQuantity" : {
          "value" : 1,
          "system" : "https://termgit.elga.gv.at/ValueSet/elga-medikationdarreichungsform",
          "code" : "100000073665"
        }
      }]
    }]
  },
  {
    "resourceType" : "MedicationRequest",
    "id" : "d2359858cb6640faa9d1f8a12345bada",
    "meta" : {
      "profile" : ["http://fhir.hl7.at/linkedcare/StructureDefinition/linca-proposal-medication-request"]
    },
    "status" : "unknown",
    "intent" : "proposal",
    "medication" : {
      "concept" : {
        "coding" : [{
          "system" : "https://termgit.elga.gv.at/CodeSystem-asp-liste",
          "code" : "981417"
        }]
      }
    },
    "subject" : {
      "reference" : "Patient/6800bda462034a9a8123e3dc48c61d53"
    },
    "informationSource" : [{
      "identifier" : {
        "system" : "urn:oid:1.2.40.0.34.5.2",
        "value" : "2.999.40.0.34.1.1.3"
      },
      "display" : "Pflegedienst Immerdar"
    }],
    "requester" : {
      "identifier" : {
        "system" : "urn:oid:2.999.40.0.34.1.1.1",
        "value" : "ECHT_SPECHT"
      },
      "display" : "DGKP Walter Specht"
    },
    "performer" : [{
      "identifier" : {
        "system" : "urn:oid:1.2.40.0.34.5.2",
        "value" : "2.999.40.0.34.3.1.3"
      },
      "display" : "Dr. Silvia Spitzmaus"
    }],
    "note" : [{
      "text" : "Pharmacy Logisitic Label"
    }],
    "dosageInstruction" : [{
      "sequence" : 1,
      "text" : "Take 2 pills daily",
      "timing" : {
        "repeat" : {
          "frequency" : 1,
          "period" : 1,
          "periodUnit" : "d"
        }
      },
      "doseAndRate" : [{
        "type" : {
          "coding" : [{
            "system" : "http://terminology.hl7.org/CodeSystem/dose-rate-type",
            "code" : "ordered",
            "display" : "Ordered"
          }]
        },
        "doseQuantity" : {
          "value" : 2,
          "system" : "https://termgit.elga.gv.at/ValueSet/elga-medikationdarreichungsform",
          "code" : "100000073665"
        }
      }]
    }]
  },
  {
    "resourceType" : "MedicationRequest",
    "id" : "c42a921b95004b87a7d19fa59cf64c99",
    "meta" : {
      "profile" : ["http://fhir.hl7.at/linkedcare/StructureDefinition/linca-proposal-medication-request"]
    },
    "status" : "unknown",
    "intent" : "proposal",
    "medication" : {
      "concept" : {
        "coding" : [{
          "system" : "https://termgit.elga.gv.at/CodeSystem-asp-liste",
          "code" : "981417"
        }]
      }
    },
    "subject" : {
      "reference" : "Patient/6800bda462034a9a8123e3dc48c61d53"
    },
    "informationSource" : [{
      "identifier" : {
        "system" : "urn:oid:1.2.40.0.34.5.2",
        "value" : "2.999.40.0.34.1.1.3"
      },
      "display" : "Pflegedienst Immerdar"
    }],
    "requester" : {
      "identifier" : {
        "system" : "urn:oid:2.999.40.0.34.1.1.1",
        "value" : "ECHT_SPECHT"
      },
      "display" : "DGKP Walter Specht"
    },
    "performer" : [{
      "identifier" : {
        "system" : "urn:oid:1.2.40.0.34.5.2",
        "value" : "2.999.40.0.34.3.1.3"
      },
      "display" : "Dr. Silvia Spitzmaus"
    }],
    "note" : [{
      "text" : "Pharmacy Logisitic Label"
    }],
    "dosageInstruction" : [{
      "sequence" : 1,
      "text" : "Take 2 pills on monday",
      "timing" : {
        "repeat" : {
          "frequency" : 1,
          "period" : 1,
          "periodUnit" : "wk",
          "dayOfWeek" : ["mon"]
        }
      },
      "doseAndRate" : [{
        "type" : {
          "coding" : [{
            "system" : "http://terminology.hl7.org/CodeSystem/dose-rate-type",
            "code" : "ordered",
            "display" : "Ordered"
          }]
        },
        "doseQuantity" : {
          "value" : 2,
          "system" : "https://termgit.elga.gv.at/ValueSet/elga-medikationdarreichungsform",
          "code" : "100000073665"
        }
      }]
    }]
  }],
  "status" : "active",
  "intent" : "proposal",
  "subject" : {
    "identifier" : {
      "system" : "urn:oid:1.2.40.0.34.5.2",
      "value" : "2.999.40.0.34.1.1.3"
    },
    "display" : "Pflegedienst Immerdar"
  },
  "action" : [{
    "type" : {
      "coding" : [{
        "code" : "create"
      }]
    },
    "resource" : {
      "reference" : "#dd3dc150a0cf4edf8b8cd577191a1000"
    }
  },
  {
    "type" : {
      "coding" : [{
        "code" : "create"
      }]
    },
    "resource" : {
      "reference" : "#d2359858cb6640faa9d1f8a12345bada"
    }
  },
  {
    "type" : {
      "coding" : [{
        "code" : "create"
      }]
    },
    "resource" : {
      "reference" : "#c42a921b95004b87a7d19fa59cf64c99"
    }
  }]
}