<?xml version="1.0" encoding="UTF-8"?>

<Bundle xmlns="http://hl7.org/fhir">
  <id value="APS-1-no-problems-medication-allergies"/>
  <meta>
    <profile value="https://fhir.hl7.at/elga-austrianpatientsummary-r4/StructureDefinition/at-ips-bundle"/>
  </meta>
  <identifier>
    <system value="http://system-to-be-defined.com"/>
    <value value="63fef90a-be11-4ddf-aece-d77da15c4f20"/>
  </identifier>
  <type value="document"/>
  <timestamp value="2024-02-08T14:01:30+00:00"/>
  <entry>
    <fullUrl value="urn:uuid:212fdc76-ccc3-40bf-8cdd-82f2ef88bd7b"/>
    <resource>
      <Composition>
        <id value="APS-1-no-problems-medication-allergies-composition"/>
        <meta>
          <profile value="https://fhir.hl7.at/elga-austrianpatientsummary-r4/StructureDefinition/at-ips-composition"/>
        </meta>
        <text>
          <status value="generated"/><div xmlns="http://www.w3.org/1999/xhtml"><a name="Composition_APS-1-no-problems-medication-allergies-composition"> </a><p class="res-header-id"><b>Generated Narrative: Composition APS-1-no-problems-medication-allergies-composition</b></p><a name="APS-1-no-problems-medication-allergies-composition"> </a><a name="hcAPS-1-no-problems-medication-allergies-composition"> </a><a name="APS-1-no-problems-medication-allergies-composition-de-AT"> </a><p><b>status</b>: Preliminary</p><p><b>type</b>: <span title="Codes:{http://loinc.org 60591-5}">Patient summary Document</span></p><p><b>date</b>: 2024-02-08 14:01:30+0000</p><p><b>author</b>: <a href="Bundle-APS-1-no-problems-medication-allergies.html#urn-uuid-75db30ee-7028-486c-929a-c5126837f472">Bundle: identifier = http://system-to-be-defined.com#63fef90a-be11-4ddf-aece-d77da15c4f20; type = document; timestamp = 2024-02-08 14:01:30+0000</a></p><p><b>title</b>: International Patient Summary</p></div>
        </text>
        <status value="preliminary"/>
        <type>
          <coding>
            <system value="http://loinc.org"/>
            <code value="60591-5"/>
            <display value="Patient summary Document"/>
          </coding>
        </type>
        <subject>
          <reference value="urn:uuid:0fed5ebe-ca8f-4ad1-aba4-ddad45bd6cc8"/>
        </subject>
        <date value="2024-02-08T14:01:30+00:00"/>
        <author>
          <reference value="urn:uuid:75db30ee-7028-486c-929a-c5126837f472"/>
        </author>
        <title value="International Patient Summary"/>
        <section>
          <title value="Medication Summary"/>
          <code>
            <coding>
              <system value="http://loinc.org"/>
              <code value="10160-0"/>
              <display value="History of Medication use Narrative"/>
            </coding>
          </code>
          <text>
            <status value="empty"/><div xmlns="http://www.w3.org/1999/xhtml"><p>narrative needs to be generated</p></div>
          </text>
          <entry>
            <reference value="urn:uuid:acac4c94-a752-4cf5-9a6b-0d84237d5076"/>
          </entry>
        </section>
        <section>
          <title value="Allergies and Intolerances"/>
          <code>
            <coding>
              <system value="http://loinc.org"/>
              <code value="48765-2"/>
              <display value="Allergies and adverse reactions Document"/>
            </coding>
          </code>
          <text>
            <status value="empty"/><div xmlns="http://www.w3.org/1999/xhtml"><p>narrative needs to be generated</p></div>
          </text>
          <entry>
            <reference value="urn:uuid:768eb9cb-00f3-4ab1-bfc2-ff835cb3b89b"/>
          </entry>
        </section>
        <section>
          <title value="Problem List"/>
          <code>
            <coding>
              <system value="http://loinc.org"/>
              <code value="11450-4"/>
              <display value="Problem list - Reported"/>
            </coding>
          </code>
          <text>
            <status value="empty"/><div xmlns="http://www.w3.org/1999/xhtml"><p>narrative needs to be generated</p></div>
          </text>
          <entry>
            <reference value="urn:uuid:72e85b9d-004d-4104-b166-86d129948bae"/>
          </entry>
        </section>
      </Composition>
    </resource>
  </entry>
  <entry>
    <fullUrl value="urn:uuid:0fed5ebe-ca8f-4ad1-aba4-ddad45bd6cc8"/>
    <resource>
      <Patient>
        <id value="APS-1-no-problems-medication-allergies-patient"/>
        <meta>
          <profile value="https://fhir.hl7.at/elga-austrianpatientsummary-r4/StructureDefinition/at-ips-patient"/>
        </meta>
        <text>
          <status value="generated"/><div xmlns="http://www.w3.org/1999/xhtml"><a name="Patient_APS-1-no-problems-medication-allergies-patient"> </a><p class="res-header-id"><b>Generated Narrative: Patient APS-1-no-problems-medication-allergies-patient</b></p><a name="APS-1-no-problems-medication-allergies-patient"> </a><a name="hcAPS-1-no-problems-medication-allergies-patient"> </a><a name="APS-1-no-problems-medication-allergies-patient-de-AT"> </a><p style="border: 1px #661aff solid; background-color: #e6e6ff; padding: 10px;">Maria Johanna Musterfrau  Female, DoB: 1961-12-24 ( Social Security Number: 1111241261)</p><hr/><table class="grid"><tr><td style="background-color: #f3f5da" title="Known Marital status of Patient">Marital Status:</td><td colspan="3"><span title="Codes:{http://terminology.hl7.org/CodeSystem/v3-MaritalStatus M}">Married</span></td></tr><tr><td style="background-color: #f3f5da" title="Ways to contact the Patient">Contact Detail</td><td colspan="3"><ul><li><a href="tel:+43.2682.40400">+43.2682.40400</a></li><li><a href="tel:+43.664.1234567">+43.664.1234567</a></li><li><a href="mailto:musterfrau@provider.at">musterfrau@provider.at</a></li><li>Musterstraße 13a Eisenstadt Burgenland 7000 AUT (home)</li></ul></td></tr></table></div>
        </text>
        <identifier>
          <type>
            <coding>
              <system value="http://terminology.hl7.org/CodeSystem/v2-0203"/>
              <code value="SS"/>
              <display value="Social Security Number"/>
            </coding>
          </type>
          <system value="urn:oid:1.2.40.0.10.1.4.3.1"/>
          <value value="1111241261"/>
          <assigner>
            <display value="Dachverband der österreichischen Sozialversicherungsträger"/>
          </assigner>
        </identifier>
        <name>
          <family value="Musterfrau"/>
          <given value="Maria"/>
          <given value="Johanna"/>
          <prefix value="Dr."/>
        </name>
        <telecom>
          <system value="phone"/>
          <value value="+43.2682.40400"/>
          <use value="home"/>
        </telecom>
        <telecom>
          <system value="phone"/>
          <value value="+43.664.1234567"/>
          <use value="mobile"/>
        </telecom>
        <telecom>
          <system value="email"/>
          <value value="musterfrau@provider.at"/>
        </telecom>
        <gender value="female"/>
        <birthDate value="1961-12-24"/>
        <address>
          <use value="home"/>
          <line value="Musterstraße 13a"/>
          <city value="Eisenstadt"/>
          <state value="Burgenland"/>
          <postalCode value="7000"/>
          <country value="AUT"/>
        </address>
        <maritalStatus>
          <coding>
            <system value="http://terminology.hl7.org/CodeSystem/v3-MaritalStatus"/>
            <code value="M"/>
            <display value="Married"/>
          </coding>
        </maritalStatus>
      </Patient>
    </resource>
  </entry>
  <entry>
    <fullUrl value="urn:uuid:75db30ee-7028-486c-929a-c5126837f472"/>
    <resource>
      <Device>
        <id value="APS-1-no-problems-medication-allergies-author"/>
        <text>
          <status value="additional"/><div xmlns="http://www.w3.org/1999/xhtml"><p>This Device generates an IPS FHIR Document from in production used ELGA CDA</p></div>
        </text>
        <deviceName>
          <name value="IPS Generator"/>
          <type value="user-friendly-name"/>
        </deviceName>
      </Device>
    </resource>
  </entry>
  <entry>
    <fullUrl value="urn:uuid:72e85b9d-004d-4104-b166-86d129948bae"/>
    <resource>
      <Condition>
        <id value="APS-1-no-problems-medication-allergies-problem-1"/>
        <meta>
          <profile value="https://fhir.hl7.at/elga-austrianpatientsummary-r4/StructureDefinition/at-ips-condition"/>
        </meta>
        <text>
          <status value="generated"/><div xmlns="http://www.w3.org/1999/xhtml"><a name="Condition_APS-1-no-problems-medication-allergies-problem-1"> </a><p class="res-header-id"><b>Generated Narrative: Condition APS-1-no-problems-medication-allergies-problem-1</b></p><a name="APS-1-no-problems-medication-allergies-problem-1"> </a><a name="hcAPS-1-no-problems-medication-allergies-problem-1"> </a><a name="APS-1-no-problems-medication-allergies-problem-1-de-AT"> </a><p><b>clinicalStatus</b>: <span title="Codes:{http://terminology.hl7.org/CodeSystem/condition-clinical inactive}">Inactive</span></p><p><b>code</b>: <span title="Codes:{http://hl7.org/fhir/uv/ips/CodeSystem/absent-unknown-uv-ips no-known-problems}">No known problems</span></p><p><b>subject</b>: <a href="Bundle-APS-1-no-problems-medication-allergies.html#urn-uuid-0fed5ebe-ca8f-4ad1-aba4-ddad45bd6cc8">Bundle: identifier = http://system-to-be-defined.com#63fef90a-be11-4ddf-aece-d77da15c4f20; type = document; timestamp = 2024-02-08 14:01:30+0000</a></p></div>
        </text>
        <clinicalStatus>
          <coding>
            <system value="http://terminology.hl7.org/CodeSystem/condition-clinical"/>
            <code value="inactive"/>
            <display value="Inactive"/>
          </coding>
        </clinicalStatus>
        <code>
          <coding>
            <system value="http://hl7.org/fhir/uv/ips/CodeSystem/absent-unknown-uv-ips"/>
            <code value="no-known-problems"/>
            <display value="No known problems"/>
          </coding>
        </code>
        <subject>
          <reference value="urn:uuid:0fed5ebe-ca8f-4ad1-aba4-ddad45bd6cc8"/>
        </subject>
      </Condition>
    </resource>
  </entry>
  <entry>
    <fullUrl value="urn:uuid:acac4c94-a752-4cf5-9a6b-0d84237d5076"/>
    <resource>
      <MedicationStatement>
        <id value="APS-1-no-problems-medication-allergies-medication-summary-1"/>
        <meta>
          <profile value="https://fhir.hl7.at/elga-austrianpatientsummary-r4/StructureDefinition/at-ips-medicationstatement"/>
        </meta>
        <text>
          <status value="generated"/><div xmlns="http://www.w3.org/1999/xhtml"><a name="MedicationStatement_APS-1-no-problems-medication-allergies-medication-summary-1"> </a><p class="res-header-id"><b>Generated Narrative: MedicationStatement APS-1-no-problems-medication-allergies-medication-summary-1</b></p><a name="APS-1-no-problems-medication-allergies-medication-summary-1"> </a><a name="hcAPS-1-no-problems-medication-allergies-medication-summary-1"> </a><a name="APS-1-no-problems-medication-allergies-medication-summary-1-de-AT"> </a><p><b>status</b>: Unknown</p><p><b>medication</b>: <span title="Codes:{http://hl7.org/fhir/uv/ips/CodeSystem/absent-unknown-uv-ips no-known-medications}">No known medications</span></p><p><b>subject</b>: <a href="Bundle-APS-1-no-problems-medication-allergies.html#urn-uuid-0fed5ebe-ca8f-4ad1-aba4-ddad45bd6cc8">Bundle: identifier = http://system-to-be-defined.com#63fef90a-be11-4ddf-aece-d77da15c4f20; type = document; timestamp = 2024-02-08 14:01:30+0000</a></p><p><b>effective</b>: 2024-02-08 10:31:58+0200</p></div>
        </text>
        <status value="unknown"/>
        <medicationCodeableConcept>
          <coding>
            <system value="http://hl7.org/fhir/uv/ips/CodeSystem/absent-unknown-uv-ips"/>
            <code value="no-known-medications"/>
            <display value="No known medications"/>
          </coding>
        </medicationCodeableConcept>
        <subject>
          <reference value="urn:uuid:0fed5ebe-ca8f-4ad1-aba4-ddad45bd6cc8"/>
        </subject>
        <effectiveDateTime value="2024-02-08T10:31:58+02:00"/>
      </MedicationStatement>
    </resource>
  </entry>
  <entry>
    <fullUrl value="urn:uuid:768eb9cb-00f3-4ab1-bfc2-ff835cb3b89b"/>
    <resource>
      <AllergyIntolerance>
        <id value="APS-1-no-problems-medication-allergies-allergy-1"/>
        <meta>
          <profile value="https://fhir.hl7.at/elga-austrianpatientsummary-r4/StructureDefinition/at-ips-allergyintolerance"/>
        </meta>
        <text>
          <status value="generated"/><div xmlns="http://www.w3.org/1999/xhtml"><a name="AllergyIntolerance_APS-1-no-problems-medication-allergies-allergy-1"> </a><p class="res-header-id"><b>Generated Narrative: AllergyIntolerance APS-1-no-problems-medication-allergies-allergy-1</b></p><a name="APS-1-no-problems-medication-allergies-allergy-1"> </a><a name="hcAPS-1-no-problems-medication-allergies-allergy-1"> </a><a name="APS-1-no-problems-medication-allergies-allergy-1-de-AT"> </a><p><b>clinicalStatus</b>: <span title="Codes:{http://terminology.hl7.org/CodeSystem/allergyintolerance-clinical inactive}">Inactive</span></p><p><b>code</b>: <span title="Codes:{http://hl7.org/fhir/uv/ips/CodeSystem/absent-unknown-uv-ips no-known-allergies}">No known allergies</span></p><p><b>patient</b>: <a href="Bundle-APS-1-no-problems-medication-allergies.html#urn-uuid-0fed5ebe-ca8f-4ad1-aba4-ddad45bd6cc8">Bundle: identifier = http://system-to-be-defined.com#63fef90a-be11-4ddf-aece-d77da15c4f20; type = document; timestamp = 2024-02-08 14:01:30+0000</a></p></div>
        </text>
        <clinicalStatus>
          <coding>
            <system value="http://terminology.hl7.org/CodeSystem/allergyintolerance-clinical"/>
            <code value="inactive"/>
            <display value="Inactive"/>
          </coding>
        </clinicalStatus>
        <code>
          <coding>
            <system value="http://hl7.org/fhir/uv/ips/CodeSystem/absent-unknown-uv-ips"/>
            <code value="no-known-allergies"/>
            <display value="No known allergies"/>
          </coding>
        </code>
        <patient>
          <reference value="urn:uuid:0fed5ebe-ca8f-4ad1-aba4-ddad45bd6cc8"/>
        </patient>
      </AllergyIntolerance>
    </resource>
  </entry>
</Bundle>