{
  "resourceType" : "Bundle",
  "id" : "APS-1-no-problems-medication-allergies",
  "meta" : {
    "profile" : ["https://fhir.hl7.at/elga-austrianpatientsummary-r4/StructureDefinition/at-ips-bundle"]
  },
  "identifier" : {
    "system" : "http://system-to-be-defined.com",
    "value" : "63fef90a-be11-4ddf-aece-d77da15c4f20"
  },
  "type" : "document",
  "timestamp" : "2024-02-08T14:01:30+00:00",
  "entry" : [{
    "fullUrl" : "urn:uuid:212fdc76-ccc3-40bf-8cdd-82f2ef88bd7b",
    "resource" : {
      "resourceType" : "Composition",
      "id" : "APS-1-no-problems-medication-allergies-composition",
      "meta" : {
        "profile" : ["https://fhir.hl7.at/elga-austrianpatientsummary-r4/StructureDefinition/at-ips-composition"]
      },
      "text" : {
        "status" : "generated",
        "div" : "<div xmlns=\"http://www.w3.org/1999/xhtml\"><a name=\"Composition_APS-1-no-problems-medication-allergies-composition\"> </a><p class=\"res-header-id\"><b>Generated Narrative: Composition APS-1-no-problems-medication-allergies-composition</b></p><a name=\"APS-1-no-problems-medication-allergies-composition\"> </a><a name=\"hcAPS-1-no-problems-medication-allergies-composition\"> </a><a name=\"APS-1-no-problems-medication-allergies-composition-de-AT\"> </a><p><b>status</b>: Preliminary</p><p><b>type</b>: <span title=\"Codes:{http://loinc.org 60591-5}\">Patient summary Document</span></p><p><b>date</b>: 2024-02-08 14:01:30+0000</p><p><b>author</b>: <a href=\"Bundle-APS-1-no-problems-medication-allergies.html#urn-uuid-75db30ee-7028-486c-929a-c5126837f472\">Bundle: identifier = http://system-to-be-defined.com#63fef90a-be11-4ddf-aece-d77da15c4f20; type = document; timestamp = 2024-02-08 14:01:30+0000</a></p><p><b>title</b>: International Patient Summary</p></div>"
      },
      "status" : "preliminary",
      "type" : {
        "coding" : [{
          "system" : "http://loinc.org",
          "code" : "60591-5",
          "display" : "Patient summary Document"
        }]
      },
      "subject" : {
        "reference" : "urn:uuid:0fed5ebe-ca8f-4ad1-aba4-ddad45bd6cc8"
      },
      "date" : "2024-02-08T14:01:30+00:00",
      "author" : [{
        "reference" : "urn:uuid:75db30ee-7028-486c-929a-c5126837f472"
      }],
      "title" : "International Patient Summary",
      "section" : [{
        "title" : "Medication Summary",
        "code" : {
          "coding" : [{
            "system" : "http://loinc.org",
            "code" : "10160-0",
            "display" : "History of Medication use Narrative"
          }]
        },
        "text" : {
          "status" : "empty",
          "div" : "<div xmlns=\"http://www.w3.org/1999/xhtml\"><p>narrative needs to be generated</p></div>"
        },
        "entry" : [{
          "reference" : "urn:uuid:acac4c94-a752-4cf5-9a6b-0d84237d5076"
        }]
      },
      {
        "title" : "Allergies and Intolerances",
        "code" : {
          "coding" : [{
            "system" : "http://loinc.org",
            "code" : "48765-2",
            "display" : "Allergies and adverse reactions Document"
          }]
        },
        "text" : {
          "status" : "empty",
          "div" : "<div xmlns=\"http://www.w3.org/1999/xhtml\"><p>narrative needs to be generated</p></div>"
        },
        "entry" : [{
          "reference" : "urn:uuid:768eb9cb-00f3-4ab1-bfc2-ff835cb3b89b"
        }]
      },
      {
        "title" : "Problem List",
        "code" : {
          "coding" : [{
            "system" : "http://loinc.org",
            "code" : "11450-4",
            "display" : "Problem list - Reported"
          }]
        },
        "text" : {
          "status" : "empty",
          "div" : "<div xmlns=\"http://www.w3.org/1999/xhtml\"><p>narrative needs to be generated</p></div>"
        },
        "entry" : [{
          "reference" : "urn:uuid:72e85b9d-004d-4104-b166-86d129948bae"
        }]
      }]
    }
  },
  {
    "fullUrl" : "urn:uuid:0fed5ebe-ca8f-4ad1-aba4-ddad45bd6cc8",
    "resource" : {
      "resourceType" : "Patient",
      "id" : "APS-1-no-problems-medication-allergies-patient",
      "meta" : {
        "profile" : ["https://fhir.hl7.at/elga-austrianpatientsummary-r4/StructureDefinition/at-ips-patient"]
      },
      "text" : {
        "status" : "generated",
        "div" : "<div xmlns=\"http://www.w3.org/1999/xhtml\"><a name=\"Patient_APS-1-no-problems-medication-allergies-patient\"> </a><p class=\"res-header-id\"><b>Generated Narrative: Patient APS-1-no-problems-medication-allergies-patient</b></p><a name=\"APS-1-no-problems-medication-allergies-patient\"> </a><a name=\"hcAPS-1-no-problems-medication-allergies-patient\"> </a><a name=\"APS-1-no-problems-medication-allergies-patient-de-AT\"> </a><p style=\"border: 1px #661aff solid; background-color: #e6e6ff; padding: 10px;\">Maria Johanna Musterfrau  Female, DoB: 1961-12-24 ( Social Security Number: 1111241261)</p><hr/><table class=\"grid\"><tr><td style=\"background-color: #f3f5da\" title=\"Known Marital status of Patient\">Marital Status:</td><td colspan=\"3\"><span title=\"Codes:{http://terminology.hl7.org/CodeSystem/v3-MaritalStatus M}\">Married</span></td></tr><tr><td style=\"background-color: #f3f5da\" title=\"Ways to contact the Patient\">Contact Detail</td><td colspan=\"3\"><ul><li><a href=\"tel:+43.2682.40400\">+43.2682.40400</a></li><li><a href=\"tel:+43.664.1234567\">+43.664.1234567</a></li><li><a href=\"mailto:musterfrau@provider.at\">musterfrau@provider.at</a></li><li>Musterstraße 13a Eisenstadt Burgenland 7000 AUT (home)</li></ul></td></tr></table></div>"
      },
      "identifier" : [{
        "type" : {
          "coding" : [{
            "system" : "http://terminology.hl7.org/CodeSystem/v2-0203",
            "code" : "SS",
            "display" : "Social Security Number"
          }]
        },
        "system" : "urn:oid:1.2.40.0.10.1.4.3.1",
        "value" : "1111241261",
        "assigner" : {
          "display" : "Dachverband der österreichischen Sozialversicherungsträger"
        }
      }],
      "name" : [{
        "family" : "Musterfrau",
        "given" : ["Maria",
        "Johanna"],
        "prefix" : ["Dr."]
      }],
      "telecom" : [{
        "system" : "phone",
        "value" : "+43.2682.40400",
        "use" : "home"
      },
      {
        "system" : "phone",
        "value" : "+43.664.1234567",
        "use" : "mobile"
      },
      {
        "system" : "email",
        "value" : "musterfrau@provider.at"
      }],
      "gender" : "female",
      "birthDate" : "1961-12-24",
      "address" : [{
        "use" : "home",
        "line" : ["Musterstraße 13a"],
        "city" : "Eisenstadt",
        "state" : "Burgenland",
        "postalCode" : "7000",
        "country" : "AUT"
      }],
      "maritalStatus" : {
        "coding" : [{
          "system" : "http://terminology.hl7.org/CodeSystem/v3-MaritalStatus",
          "code" : "M",
          "display" : "Married"
        }]
      }
    }
  },
  {
    "fullUrl" : "urn:uuid:75db30ee-7028-486c-929a-c5126837f472",
    "resource" : {
      "resourceType" : "Device",
      "id" : "APS-1-no-problems-medication-allergies-author",
      "text" : {
        "status" : "additional",
        "div" : "<div xmlns=\"http://www.w3.org/1999/xhtml\"><p>This Device generates an IPS FHIR Document from in production used ELGA CDA</p></div>"
      },
      "deviceName" : [{
        "name" : "IPS Generator",
        "type" : "user-friendly-name"
      }]
    }
  },
  {
    "fullUrl" : "urn:uuid:72e85b9d-004d-4104-b166-86d129948bae",
    "resource" : {
      "resourceType" : "Condition",
      "id" : "APS-1-no-problems-medication-allergies-problem-1",
      "meta" : {
        "profile" : ["https://fhir.hl7.at/elga-austrianpatientsummary-r4/StructureDefinition/at-ips-condition"]
      },
      "text" : {
        "status" : "generated",
        "div" : "<div xmlns=\"http://www.w3.org/1999/xhtml\"><a name=\"Condition_APS-1-no-problems-medication-allergies-problem-1\"> </a><p class=\"res-header-id\"><b>Generated Narrative: Condition APS-1-no-problems-medication-allergies-problem-1</b></p><a name=\"APS-1-no-problems-medication-allergies-problem-1\"> </a><a name=\"hcAPS-1-no-problems-medication-allergies-problem-1\"> </a><a name=\"APS-1-no-problems-medication-allergies-problem-1-de-AT\"> </a><p><b>clinicalStatus</b>: <span title=\"Codes:{http://terminology.hl7.org/CodeSystem/condition-clinical inactive}\">Inactive</span></p><p><b>code</b>: <span title=\"Codes:{http://hl7.org/fhir/uv/ips/CodeSystem/absent-unknown-uv-ips no-known-problems}\">No known problems</span></p><p><b>subject</b>: <a href=\"Bundle-APS-1-no-problems-medication-allergies.html#urn-uuid-0fed5ebe-ca8f-4ad1-aba4-ddad45bd6cc8\">Bundle: identifier = http://system-to-be-defined.com#63fef90a-be11-4ddf-aece-d77da15c4f20; type = document; timestamp = 2024-02-08 14:01:30+0000</a></p></div>"
      },
      "clinicalStatus" : {
        "coding" : [{
          "system" : "http://terminology.hl7.org/CodeSystem/condition-clinical",
          "code" : "inactive",
          "display" : "Inactive"
        }]
      },
      "code" : {
        "coding" : [{
          "system" : "http://hl7.org/fhir/uv/ips/CodeSystem/absent-unknown-uv-ips",
          "code" : "no-known-problems",
          "display" : "No known problems"
        }]
      },
      "subject" : {
        "reference" : "urn:uuid:0fed5ebe-ca8f-4ad1-aba4-ddad45bd6cc8"
      }
    }
  },
  {
    "fullUrl" : "urn:uuid:acac4c94-a752-4cf5-9a6b-0d84237d5076",
    "resource" : {
      "resourceType" : "MedicationStatement",
      "id" : "APS-1-no-problems-medication-allergies-medication-summary-1",
      "meta" : {
        "profile" : ["https://fhir.hl7.at/elga-austrianpatientsummary-r4/StructureDefinition/at-ips-medicationstatement"]
      },
      "text" : {
        "status" : "generated",
        "div" : "<div xmlns=\"http://www.w3.org/1999/xhtml\"><a name=\"MedicationStatement_APS-1-no-problems-medication-allergies-medication-summary-1\"> </a><p class=\"res-header-id\"><b>Generated Narrative: MedicationStatement APS-1-no-problems-medication-allergies-medication-summary-1</b></p><a name=\"APS-1-no-problems-medication-allergies-medication-summary-1\"> </a><a name=\"hcAPS-1-no-problems-medication-allergies-medication-summary-1\"> </a><a name=\"APS-1-no-problems-medication-allergies-medication-summary-1-de-AT\"> </a><p><b>status</b>: Unknown</p><p><b>medication</b>: <span title=\"Codes:{http://hl7.org/fhir/uv/ips/CodeSystem/absent-unknown-uv-ips no-known-medications}\">No known medications</span></p><p><b>subject</b>: <a href=\"Bundle-APS-1-no-problems-medication-allergies.html#urn-uuid-0fed5ebe-ca8f-4ad1-aba4-ddad45bd6cc8\">Bundle: identifier = http://system-to-be-defined.com#63fef90a-be11-4ddf-aece-d77da15c4f20; type = document; timestamp = 2024-02-08 14:01:30+0000</a></p><p><b>effective</b>: 2024-02-08 10:31:58+0200</p></div>"
      },
      "status" : "unknown",
      "medicationCodeableConcept" : {
        "coding" : [{
          "system" : "http://hl7.org/fhir/uv/ips/CodeSystem/absent-unknown-uv-ips",
          "code" : "no-known-medications",
          "display" : "No known medications"
        }]
      },
      "subject" : {
        "reference" : "urn:uuid:0fed5ebe-ca8f-4ad1-aba4-ddad45bd6cc8"
      },
      "effectiveDateTime" : "2024-02-08T10:31:58+02:00"
    }
  },
  {
    "fullUrl" : "urn:uuid:768eb9cb-00f3-4ab1-bfc2-ff835cb3b89b",
    "resource" : {
      "resourceType" : "AllergyIntolerance",
      "id" : "APS-1-no-problems-medication-allergies-allergy-1",
      "meta" : {
        "profile" : ["https://fhir.hl7.at/elga-austrianpatientsummary-r4/StructureDefinition/at-ips-allergyintolerance"]
      },
      "text" : {
        "status" : "generated",
        "div" : "<div xmlns=\"http://www.w3.org/1999/xhtml\"><a name=\"AllergyIntolerance_APS-1-no-problems-medication-allergies-allergy-1\"> </a><p class=\"res-header-id\"><b>Generated Narrative: AllergyIntolerance APS-1-no-problems-medication-allergies-allergy-1</b></p><a name=\"APS-1-no-problems-medication-allergies-allergy-1\"> </a><a name=\"hcAPS-1-no-problems-medication-allergies-allergy-1\"> </a><a name=\"APS-1-no-problems-medication-allergies-allergy-1-de-AT\"> </a><p><b>clinicalStatus</b>: <span title=\"Codes:{http://terminology.hl7.org/CodeSystem/allergyintolerance-clinical inactive}\">Inactive</span></p><p><b>code</b>: <span title=\"Codes:{http://hl7.org/fhir/uv/ips/CodeSystem/absent-unknown-uv-ips no-known-allergies}\">No known allergies</span></p><p><b>patient</b>: <a href=\"Bundle-APS-1-no-problems-medication-allergies.html#urn-uuid-0fed5ebe-ca8f-4ad1-aba4-ddad45bd6cc8\">Bundle: identifier = http://system-to-be-defined.com#63fef90a-be11-4ddf-aece-d77da15c4f20; type = document; timestamp = 2024-02-08 14:01:30+0000</a></p></div>"
      },
      "clinicalStatus" : {
        "coding" : [{
          "system" : "http://terminology.hl7.org/CodeSystem/allergyintolerance-clinical",
          "code" : "inactive",
          "display" : "Inactive"
        }]
      },
      "code" : {
        "coding" : [{
          "system" : "http://hl7.org/fhir/uv/ips/CodeSystem/absent-unknown-uv-ips",
          "code" : "no-known-allergies",
          "display" : "No known allergies"
        }]
      },
      "patient" : {
        "reference" : "urn:uuid:0fed5ebe-ca8f-4ad1-aba4-ddad45bd6cc8"
      }
    }
  }]
}