{
  "resourceType" : "Bundle",
  "id" : "IPS-1-no-problems-medication-allergies",
  "meta" : {
    "profile" : ["https://fhir.hl7.at/elga-austrianpatientsummary-r4/StructureDefinition/at-ips-bundle"]
  },
  "identifier" : {
    "system" : "http://system-to-be-defined.com",
    "value" : "63fef90a-be11-4ddf-aece-d77da15c4f20"
  },
  "type" : "document",
  "timestamp" : "2024-02-08T14:01:30+00:00",
  "entry" : [{
    "fullUrl" : "urn:uuid:212fdc76-ccc3-40bf-8cdd-82f2ef88bd7b",
    "resource" : {
      "resourceType" : "Composition",
      "id" : "IPS-1-no-problems-medication-allergies-composition",
      "meta" : {
        "profile" : ["https://fhir.hl7.at/elga-austrianpatientsummary-r4/StructureDefinition/at-ips-composition"]
      },
      "text" : {
        "status" : "generated",
        "div" : "<div xmlns=\"http://www.w3.org/1999/xhtml\"><a name=\"Composition_IPS-1-no-problems-medication-allergies-composition\"> </a><p><b>Generated Narrative: Composition </b><a name=\"IPS-1-no-problems-medication-allergies-composition\"> </a><a name=\"hcIPS-1-no-problems-medication-allergies-composition\"> </a></p><div style=\"display: inline-block; background-color: #d9e0e7; padding: 6px; margin: 4px; border: 1px solid #8da1b4; border-radius: 5px; line-height: 60%\"><p style=\"margin-bottom: 0px\">ResourceComposition &quot;IPS-1-no-problems-medication-allergies-composition&quot; </p><p style=\"margin-bottom: 0px\">Profile: <a href=\"StructureDefinition-at-ips-composition.html\">AT IPS Composition</a></p></div><p><b>status</b>: preliminary</p><p><b>type</b>: Patient summary Document <span style=\"background: LightGoldenRodYellow; margin: 4px; border: 1px solid khaki\"> (<a href=\"https://loinc.org/\">LOINC</a>#60591-5)</span></p><p><b>date</b>: 2024-02-08 14:01:30+0000</p><p><b>author</b>: See on this page: urn:uuid:75db30ee-7028-486c-929a-c5126837f472</p><p><b>title</b>: International Patient Summary</p></div>"
      },
      "status" : "preliminary",
      "type" : {
        "coding" : [{
          "system" : "http://loinc.org",
          "code" : "60591-5",
          "display" : "Patient summary Document"
        }]
      },
      "subject" : {
        "reference" : "urn:uuid:0fed5ebe-ca8f-4ad1-aba4-ddad45bd6cc8"
      },
      "date" : "2024-02-08T14:01:30+00:00",
      "author" : [{
        "reference" : "urn:uuid:75db30ee-7028-486c-929a-c5126837f472"
      }],
      "title" : "International Patient Summary",
      "section" : [{
        "title" : "Medication Summary",
        "code" : {
          "coding" : [{
            "system" : "http://loinc.org",
            "code" : "10160-0",
            "display" : "History of Medication use Narrative"
          }]
        },
        "text" : {
          "status" : "empty",
          "div" : "<div xmlns=\"http://www.w3.org/1999/xhtml\"><p>narrative needs to be generated</p></div>"
        },
        "entry" : [{
          "reference" : "urn:uuid:acac4c94-a752-4cf5-9a6b-0d84237d5076"
        }]
      },
      {
        "title" : "Allergies and Intolerances",
        "code" : {
          "coding" : [{
            "system" : "http://loinc.org",
            "code" : "48765-2",
            "display" : "Allergies and adverse reactions Document"
          }]
        },
        "text" : {
          "status" : "empty",
          "div" : "<div xmlns=\"http://www.w3.org/1999/xhtml\"><p>narrative needs to be generated</p></div>"
        },
        "entry" : [{
          "reference" : "urn:uuid:768eb9cb-00f3-4ab1-bfc2-ff835cb3b89b"
        }]
      },
      {
        "title" : "Problem List",
        "code" : {
          "coding" : [{
            "system" : "http://loinc.org",
            "code" : "11450-4",
            "display" : "Problem list - Reported"
          }]
        },
        "text" : {
          "status" : "empty",
          "div" : "<div xmlns=\"http://www.w3.org/1999/xhtml\"><p>narrative needs to be generated</p></div>"
        },
        "entry" : [{
          "reference" : "urn:uuid:72e85b9d-004d-4104-b166-86d129948bae"
        }]
      }]
    }
  },
  {
    "fullUrl" : "urn:uuid:0fed5ebe-ca8f-4ad1-aba4-ddad45bd6cc8",
    "resource" : {
      "resourceType" : "Patient",
      "id" : "IPS-1-no-problems-medication-allergies-patient",
      "meta" : {
        "profile" : ["https://fhir.hl7.at/elga-austrianpatientsummary-r4/StructureDefinition/at-ips-patient"]
      },
      "text" : {
        "status" : "generated",
        "div" : "<div xmlns=\"http://www.w3.org/1999/xhtml\"><a name=\"Patient_IPS-1-no-problems-medication-allergies-patient\"> </a><p><b>Generated Narrative: Patient </b><a name=\"IPS-1-no-problems-medication-allergies-patient\"> </a><a name=\"hcIPS-1-no-problems-medication-allergies-patient\"> </a></p><div style=\"display: inline-block; background-color: #d9e0e7; padding: 6px; margin: 4px; border: 1px solid #8da1b4; border-radius: 5px; line-height: 60%\"><p style=\"margin-bottom: 0px\">ResourcePatient &quot;IPS-1-no-problems-medication-allergies-patient&quot; </p><p style=\"margin-bottom: 0px\">Profile: <a href=\"StructureDefinition-at-ips-patient.html\">AT IPS Patient</a></p></div><p><b>identifier</b>: Social Security Number/1111241261</p><p><b>name</b>: Maria Johanna Musterfrau </p><p><b>telecom</b>: <a href=\"tel:+43.2682.40400\">+43.2682.40400</a>, <a href=\"tel:+43.664.1234567\">+43.664.1234567</a>, <a href=\"mailto:musterfrau@provider.at\">musterfrau@provider.at</a></p><p><b>gender</b>: female</p><p><b>birthDate</b>: 1961-12-24</p><p><b>address</b>: Musterstraße 13a Eisenstadt Burgenland 7000 AUT (home)</p><p><b>maritalStatus</b>: Married <span style=\"background: LightGoldenRodYellow; margin: 4px; border: 1px solid khaki\"> (<a href=\"http://terminology.hl7.org/5.5.0/CodeSystem-v3-MaritalStatus.html\">MaritalStatus</a>#M)</span></p></div>"
      },
      "identifier" : [{
        "type" : {
          "coding" : [{
            "system" : "http://terminology.hl7.org/CodeSystem/v2-0203",
            "code" : "SS",
            "display" : "Social Security Number"
          }]
        },
        "system" : "urn:oid:1.2.40.0.10.1.4.3.1",
        "value" : "1111241261",
        "assigner" : {
          "display" : "Dachverband der österreichischen Sozialversicherungsträger"
        }
      }],
      "name" : [{
        "family" : "Musterfrau",
        "given" : ["Maria",
        "Johanna"],
        "prefix" : ["Dr."]
      }],
      "telecom" : [{
        "system" : "phone",
        "value" : "+43.2682.40400",
        "use" : "home"
      },
      {
        "system" : "phone",
        "value" : "+43.664.1234567",
        "use" : "mobile"
      },
      {
        "system" : "email",
        "value" : "musterfrau@provider.at"
      }],
      "gender" : "female",
      "birthDate" : "1961-12-24",
      "address" : [{
        "use" : "home",
        "line" : ["Musterstraße 13a"],
        "city" : "Eisenstadt",
        "state" : "Burgenland",
        "postalCode" : "7000",
        "country" : "AUT"
      }],
      "maritalStatus" : {
        "coding" : [{
          "system" : "http://terminology.hl7.org/CodeSystem/v3-MaritalStatus",
          "code" : "M",
          "display" : "Married"
        }]
      }
    }
  },
  {
    "fullUrl" : "urn:uuid:75db30ee-7028-486c-929a-c5126837f472",
    "resource" : {
      "resourceType" : "Device",
      "id" : "IPS-1-no-problems-medication-allergies-author",
      "text" : {
        "status" : "additional",
        "div" : "<div xmlns=\"http://www.w3.org/1999/xhtml\"><p>This Device generates an IPS FHIR Document from in production used ELGA CDA</p></div>"
      },
      "deviceName" : [{
        "name" : "IPS Generator",
        "type" : "user-friendly-name"
      }]
    }
  },
  {
    "fullUrl" : "urn:uuid:72e85b9d-004d-4104-b166-86d129948bae",
    "resource" : {
      "resourceType" : "Condition",
      "id" : "IPS-1-no-problems-medication-allergies-problem-1",
      "meta" : {
        "profile" : ["https://fhir.hl7.at/elga-austrianpatientsummary-r4/StructureDefinition/at-ips-condition"]
      },
      "text" : {
        "status" : "generated",
        "div" : "<div xmlns=\"http://www.w3.org/1999/xhtml\"><a name=\"Condition_IPS-1-no-problems-medication-allergies-problem-1\"> </a><p><b>Generated Narrative: Condition </b><a name=\"IPS-1-no-problems-medication-allergies-problem-1\"> </a><a name=\"hcIPS-1-no-problems-medication-allergies-problem-1\"> </a></p><div style=\"display: inline-block; background-color: #d9e0e7; padding: 6px; margin: 4px; border: 1px solid #8da1b4; border-radius: 5px; line-height: 60%\"><p style=\"margin-bottom: 0px\">ResourceCondition &quot;IPS-1-no-problems-medication-allergies-problem-1&quot; </p><p style=\"margin-bottom: 0px\">Profile: <a href=\"StructureDefinition-at-ips-condition.html\">AT IPS Condition</a></p></div><p><b>clinicalStatus</b>: Inactive <span style=\"background: LightGoldenRodYellow; margin: 4px; border: 1px solid khaki\"> (<a href=\"http://terminology.hl7.org/5.5.0/CodeSystem-condition-clinical.html\">Condition Clinical Status Codes</a>#inactive)</span></p><p><b>code</b>: No known problems <span style=\"background: LightGoldenRodYellow; margin: 4px; border: 1px solid khaki\"> (<a href=\"http://hl7.org/fhir/uv/ips/STU1.1/CodeSystem-absent-unknown-uv-ips.html\">Absent and Unknown Data - IPS</a>#no-known-problems)</span></p><p><b>subject</b>: See on this page: urn:uuid:0fed5ebe-ca8f-4ad1-aba4-ddad45bd6cc8</p></div>"
      },
      "clinicalStatus" : {
        "coding" : [{
          "system" : "http://terminology.hl7.org/CodeSystem/condition-clinical",
          "code" : "inactive",
          "display" : "Inactive"
        }]
      },
      "code" : {
        "coding" : [{
          "system" : "http://hl7.org/fhir/uv/ips/CodeSystem/absent-unknown-uv-ips",
          "code" : "no-known-problems",
          "display" : "No known problems"
        }]
      },
      "subject" : {
        "reference" : "urn:uuid:0fed5ebe-ca8f-4ad1-aba4-ddad45bd6cc8"
      }
    }
  },
  {
    "fullUrl" : "urn:uuid:acac4c94-a752-4cf5-9a6b-0d84237d5076",
    "resource" : {
      "resourceType" : "MedicationStatement",
      "id" : "IPS-1-no-problems-medication-allergies-medication-summary-1",
      "meta" : {
        "profile" : ["https://fhir.hl7.at/elga-austrianpatientsummary-r4/StructureDefinition/at-ips-medicationstatement"]
      },
      "text" : {
        "status" : "generated",
        "div" : "<div xmlns=\"http://www.w3.org/1999/xhtml\"><a name=\"MedicationStatement_IPS-1-no-problems-medication-allergies-medication-summary-1\"> </a><p><b>Generated Narrative: MedicationStatement </b><a name=\"IPS-1-no-problems-medication-allergies-medication-summary-1\"> </a><a name=\"hcIPS-1-no-problems-medication-allergies-medication-summary-1\"> </a></p><div style=\"display: inline-block; background-color: #d9e0e7; padding: 6px; margin: 4px; border: 1px solid #8da1b4; border-radius: 5px; line-height: 60%\"><p style=\"margin-bottom: 0px\">ResourceMedicationStatement &quot;IPS-1-no-problems-medication-allergies-medication-summary-1&quot; </p><p style=\"margin-bottom: 0px\">Profile: <a href=\"StructureDefinition-at-ips-medicationstatement.html\">AT IPS MedicationStatement</a></p></div><p><b>status</b>: unknown</p><p><b>medication</b>: No known medications <span style=\"background: LightGoldenRodYellow; margin: 4px; border: 1px solid khaki\"> (<a href=\"http://hl7.org/fhir/uv/ips/STU1.1/CodeSystem-absent-unknown-uv-ips.html\">Absent and Unknown Data - IPS</a>#no-known-medications)</span></p><p><b>subject</b>: See on this page: urn:uuid:0fed5ebe-ca8f-4ad1-aba4-ddad45bd6cc8</p><p><b>effective</b>: 2024-02-08 10:31:58+0200</p></div>"
      },
      "status" : "unknown",
      "medicationCodeableConcept" : {
        "coding" : [{
          "system" : "http://hl7.org/fhir/uv/ips/CodeSystem/absent-unknown-uv-ips",
          "code" : "no-known-medications",
          "display" : "No known medications"
        }]
      },
      "subject" : {
        "reference" : "urn:uuid:0fed5ebe-ca8f-4ad1-aba4-ddad45bd6cc8"
      },
      "effectiveDateTime" : "2024-02-08T10:31:58+02:00"
    }
  },
  {
    "fullUrl" : "urn:uuid:768eb9cb-00f3-4ab1-bfc2-ff835cb3b89b",
    "resource" : {
      "resourceType" : "AllergyIntolerance",
      "id" : "IPS-1-no-problems-medication-allergies-allergy-1",
      "meta" : {
        "profile" : ["https://fhir.hl7.at/elga-austrianpatientsummary-r4/StructureDefinition/at-ips-allergyintolerance"]
      },
      "text" : {
        "status" : "generated",
        "div" : "<div xmlns=\"http://www.w3.org/1999/xhtml\"><a name=\"AllergyIntolerance_IPS-1-no-problems-medication-allergies-allergy-1\"> </a><p><b>Generated Narrative: AllergyIntolerance </b><a name=\"IPS-1-no-problems-medication-allergies-allergy-1\"> </a><a name=\"hcIPS-1-no-problems-medication-allergies-allergy-1\"> </a></p><div style=\"display: inline-block; background-color: #d9e0e7; padding: 6px; margin: 4px; border: 1px solid #8da1b4; border-radius: 5px; line-height: 60%\"><p style=\"margin-bottom: 0px\">ResourceAllergyIntolerance &quot;IPS-1-no-problems-medication-allergies-allergy-1&quot; </p><p style=\"margin-bottom: 0px\">Profile: <a href=\"StructureDefinition-at-ips-allergyintolerance.html\">AT IPS AllergyIntolerance</a></p></div><p><b>clinicalStatus</b>: Inactive <span style=\"background: LightGoldenRodYellow; margin: 4px; border: 1px solid khaki\"> (<a href=\"http://terminology.hl7.org/5.5.0/CodeSystem-allergyintolerance-clinical.html\">AllergyIntolerance Clinical Status Codes</a>#inactive)</span></p><p><b>code</b>: No known allergies <span style=\"background: LightGoldenRodYellow; margin: 4px; border: 1px solid khaki\"> (<a href=\"http://hl7.org/fhir/uv/ips/STU1.1/CodeSystem-absent-unknown-uv-ips.html\">Absent and Unknown Data - IPS</a>#no-known-allergies)</span></p><p><b>patient</b>: See on this page: urn:uuid:0fed5ebe-ca8f-4ad1-aba4-ddad45bd6cc8</p></div>"
      },
      "clinicalStatus" : {
        "coding" : [{
          "system" : "http://terminology.hl7.org/CodeSystem/allergyintolerance-clinical",
          "code" : "inactive",
          "display" : "Inactive"
        }]
      },
      "code" : {
        "coding" : [{
          "system" : "http://hl7.org/fhir/uv/ips/CodeSystem/absent-unknown-uv-ips",
          "code" : "no-known-allergies",
          "display" : "No known allergies"
        }]
      },
      "patient" : {
        "reference" : "urn:uuid:0fed5ebe-ca8f-4ad1-aba4-ddad45bd6cc8"
      }
    }
  }]
}